Folder: AMPERE/measurement_files/Fig4d/RuO2 on carbon paper

Note: README.md
# AMPERE
AMPERE: Automated modular platform for expedited and reproducible electrochemical testing

![image of the system](media/image1.tiff)

File: 231121_1_07_LSV_C01.txt
Ewe/V	<I>/mA
1.08831	0.000000000000000E+000
0.888687	0.167845
0.980634	0.232953
1.07262	0.256293
1.16456	0.375529
1.25654	2.60179
1.34853	6.36112
1.44055	10.4581
0.878658	0.162007
0.970655	0.224505
1.06259	0.258148
1.15457	0.304255
1.24656	2.08533
1.33853	5.73366
1.43054	9.78721
0.868709	0.151994
0.960663	0.212728
1.05261	0.256488
1.14456	0.273119
1.23656	1.64984
1.32851	5.1514
1.4205	9.16322
0.858661	0.0898903
0.950651	0.136076
1.04263	0.168055
1.1346	0.175678
1.22655	1.0459
1.31858	3.96596
1.41051	7.50538
0.848691	0.0800618
0.940632	0.130194
1.03259	0.168279
1.12453	0.167754
1.21662	0.749329
1.30854	3.48449
1.40047	7.02958
0.838712	0.0650753
0.930636	0.124244
1.02259	0.166085
1.11461	0.163626
1.20658	0.544765
1.29855	3.06992
1.39049	6.58101
0.828701	0.0575936
0.920651	0.126735
1.01262	0.176237
1.10464	0.180146
1.19661	0.490468
1.28853	2.99792
1.38054	6.5298
0.818643	-0.016337
0.910644	0.118293
1.00265	0.170581
1.09461	0.177373
1.18662	0.345486
1.27852	2.52485
1.37054	6.02228
0.808689	-0.646675
0.900663	0.111484
0.992604	0.162923
1.08461	0.175527
1.17659	0.270101
1.26856	2.12991
1.3605	5.56127
0.799269	-10.7709
0.890657	0.0803697
0.982647	0.142625
1.07457	0.16458
1.16661	0.23228
1.25853	1.63431
1.35053	4.57828
1.4425	7.9524
0.880629	0.0671177
0.972605	0.137672
1.06461	0.166396
1.15661	0.194645
1.24853	1.28859
1.34056	4.16444
1.4325	7.58401
0.87068	0.0589789
0.962633	0.130998
1.0546	0.165066
1.14658	0.17866
1.23857	1.01721
1.33055	3.78749
1.42251	7.20858
0.860679	0.0927827
0.952707	0.169712
1.04462	0.215546
1.13658	0.223271
1.22853	0.982125
1.32052	3.67215
1.41251	6.97795
0.850678	0.0704509
0.942683	0.163312
1.03459	0.217387
1.12663	0.216108
1.21854	0.728259
1.31054	3.25899
1.40254	6.57947
0.840648	0.0396797
0.932655	0.156573
1.02463	0.214827
1.11661	0.212379
1.20852	0.554241
1.3005	2.89592
1.39255	6.19549
0.830679	-0.0150757
0.922674	0.102388
1.01463	0.140036
1.10658	0.139761
1.19856	0.357246
1.29052	2.56823
1.38257	5.90201
0.820685	-0.116735
0.912633	0.0982515
1.00464	0.137466
1.09657	0.140186
1.18859	0.257737
1.28053	2.13062
1.37252	5.42592
0.810716	-0.402129
0.902684	0.0936327
0.994624	0.133308
1.08662	0.140136
1.17855	0.205484
1.27053	1.7853
1.36252	5.01339
0.800695	-6.81364
0.892655	0.125998
0.984607	0.208488
1.07661	0.239594
1.16856	0.309921
1.26055	1.71738
1.35256	4.54276
1.44448	7.78835
0.882673	0.107521
0.974648	0.20103
1.06658	0.244809
1.15857	0.27167
1.25055	1.39572
1.34252	4.16186
1.43451	7.43584
0.872678	0.0943655
0.964586	0.193303
1.05662	0.245366
1.14852	0.255014
1.24053	1.1349
1.33253	3.80984
1.42451	7.0792
0.862675	0.0636109
0.954602	0.111489
1.04655	0.13817
1.13859	0.145307
1.2306	0.827262
1.32254	3.42488
1.41452	6.65032
0.852688	0.0532832
0.944563	0.107474
1.03664	0.139574
1.12857	0.139603
1.22055	0.591912
1.31252	3.02759
1.40449	6.28279
0.842666	0.0393634
0.934579	0.103174
1.02661	0.138545
1.1186	0.136214
1.21055	0.433314
1.30256	2.6735
1.39448	5.91287
0.832682	0.0316541
0.924626	0.0697072
1.01665	0.0933472
1.1086	0.0918488
1.20056	0.288975
1.29259	2.31011
1.3845	5.37956
0.822659	0.0101269
0.914619	0.0674644
1.00659	0.0925891
1.09858	0.0920652
1.19058	0.197944
1.28255	1.91995
1.37455	4.96338
0.812665	-0.0522626
0.904632	0.0653097
0.99661	0.0903916
1.08857	0.0916949
1.18055	0.150708
1.27253	1.59327
1.36454	4.56998
0.802675	-2.73617
0.894657	0.0812547
0.98663	0.117518
1.07859	0.124687
1.17058	0.177478
1.26256	1.53763
1.35454	4.3489
1.44649	7.56543
0.884674	0.0783547
0.976607	0.114564
1.06862	0.126731
1.16057	0.149283
1.25253	1.21201
1.34451	3.96174
1.4365	7.22253
0.874666	0.0750897
0.96663	0.109791
1.0586	0.126926
1.15061	0.135744
1.24254	0.953588
1.33455	3.60628
1.42647	6.87076
0.864702	0.0857763
0.956618	0.136268
1.04858	0.168539
1.14055	0.175972
1.23254	0.933089
1.32453	3.54394
1.4165	6.75618
0.854665	0.0756595
0.94659	0.130792
1.0386	0.170753
1.1306	0.1692
1.22256	0.686246
1.31459	3.15693
1.40654	6.39133
0.844673	0.062949
0.936643	0.1255
1.0286	0.169515
1.1206	0.16505
1.21256	0.514172
1.30453	2.80909
1.39653	6.02662
0.8347	0.0253901
0.926629	0.10065
1.0186	0.13691
1.11059	0.137118
1.20257	0.393607
1.29459	2.56011
1.38651	5.73546
0.824689	-0.0223077
0.916618	0.0975593
1.00864	0.137066
1.10056	0.13744
1.19258	0.276952
1.2846	2.16745
1.37646	5.32587
0.81466	-0.14394
0.90663	0.0943982
0.998571	0.133482
1.09058	0.13679
1.18255	0.21593
1.27456	1.83155
1.36652	4.93375
0.804674	-0.778655
0.896662	0.0754094
0.988635	0.104844
1.0806	0.108938
1.1726	0.172265
1.26457	1.67518
1.35652	4.70311
1.44853	8.11879
0.886681	0.0719418
0.9786	0.10222
1.07064	0.109806
1.16263	0.137868
1.25457	1.32159
1.34654	4.28662
1.43851	7.73364
0.876688	0.0686611
0.968645	0.0981092
1.06062	0.109825
1.15262	0.121901
1.24458	1.03311
1.33649	3.89155
1.42853	7.33692
0.866665	0.0677875
0.958651	0.0930757
1.05058	0.106556
1.14259	0.11598
1.23458	0.91609
1.32651	3.75132
1.41853	7.1802
0.85662	0.0646518
0.948601	0.089293
1.04062	0.10765
1.13261	0.107849
1.22457	0.642761
1.31655	3.31095
1.40849	6.75792
0.846626	0.0608015
0.938638	0.0852203
1.03061	0.106542
1.1226	0.103076
1.2145	0.455074
1.30654	2.91404
1.39852	6.33638
1.44885	8.35174